param_fmriSession,param_counterbalanceVer,param_block_num,param_trial_num,param_cond_type_num,param_cond_type_string,param_normative_response,param_ques_type_string,param_image_num,param_image_filename,p1_block_fix,p1_block_fix_dur,p1_block_question_onset,p1_block_isi_blackscreen,p1_question_duration,p2_image_onset,p2_image_duration,p3_keypress_RT,p3_keypress_key,p3_keypress_onset,p4_short_question_onset,param_end_instruct_onset,total_param_experimentDuration,RAW_param_triggerOnset,param_start_biopac,RAW_p1_block_fix,RAW_p1_block_question_onset,RAW_p1_block_isi_blackscreen,RAW_p2_image_onset,RAW_p3_keypress_onset,RAW_p4_short_question_onset,RAW_param_end_instruct_onset,CHANGE
4,3,1,1,4,c4_HowHand,1,reaching?,107,H_007.jpg,0,0.0450947284698486,0,0,2.03410029411316,0,1.71731519699097,0,0,0,0,0,0,1605249066.04311,1605249066.05755,1605249068.82772,1605249068.87774,1605249070.91184,1605249071.06189,0,1605249072.77921,0,1605249664.0366
4,3,1,2,4,c4_HowHand,2,reaching?,108,H_532.jpg,0,0.0450947284698486,0,0,0.3,0,0.616899013519287,0.602499008178711,1,0,0,0,0,1605249066.04311,1605249066.05755,1605249068.82772,1605249068.87774,1605249070.91184,1605249073.09599,1605249073.71766,1605249073.71289,0,1605249664.0366
4,3,1,3,4,c4_HowHand,1,reaching?,109,H_474.jpg,0,0.0450947284698486,0,0,0.3,0,0.766956806182861,0.753038883209229,1,0,0,0,0,1605249066.04311,1605249066.05755,1605249068.82772,1605249068.87774,1605249070.91184,1605249074.02968,1605249074.80032,1605249074.79664,0,1605249664.0366
4,3,1,4,4,c4_HowHand,2,reaching?,105,H_438.jpg,0,0.0450947284698486,0,0,0.3,0,0.866992950439453,0.847554206848145,2,0,0,0,0,1605249066.04311,1605249066.05755,1605249068.82772,1605249068.87774,1605249070.91184,1605249075.11342,1605249075.984,1605249075.98042,0,1605249664.0366
4,3,1,5,4,c4_HowHand,1,reaching?,110,H_364.jpg,0,0.0450947284698486,0,0,0.3,0,0.86699366569519,0.855386018753052,1,0,0,0,0,1605249066.04311,1605249066.05755,1605249068.82772,1605249068.87774,1605249070.91184,1605249076.2972,1605249077.16937,1605249077.1642,0,1605249664.0366
4,3,1,6,4,c4_HowHand,1,reaching?,106,H_006.jpg,0,0.0450947284698486,0,0,0.3,0,0.883665800094604,0.865288972854614,1,0,0,0,0,1605249066.04311,1605249066.05755,1605249068.82772,1605249068.87774,1605249070.91184,1605249077.48098,1605249078.36742,1605249078.36465,0,1605249664.0366
4,3,1,7,4,c4_HowHand,1,reaching?,111,H_003.jpg,0,0.0450947284698486,0,0,0.3,0,0.900338888168335,0.886865854263306,1,0,0,0,0,1605249066.04311,1605249066.05755,1605249068.82772,1605249068.87774,1605249070.91184,1605249078.68144,1605249079.58475,1605249079.58178,0,1605249664.0366
4,3,1,8,4,c4_HowHand,2,reaching?,112,H_132.jpg,0,0.0450947284698486,0,0,0.3,0,0.85032057762146,0.835605144500732,1,0,0,0,0,1605249066.04311,1605249066.05755,1605249068.82772,1605249068.87774,1605249070.91184,1605249079.89856,1605249080.75099,1605249080.74888,0,1605249664.0366
4,3,2,1,2,c2_WhyHand,1,healthy?,21,H_627.jpg,0,5.35282349586487,0,0,2.10079288482666,0,0.700264930725098,0.678623914718628,1,0,0,0,0,1605249066.04311,1605249066.05755,1605249080.9823,1605249086.351,1605249088.45179,1605249088.60185,1605249089.30406,1605249089.30211,0,1605249664.0366
4,3,2,2,2,c2_WhyHand,1,healthy?,18,H_438.jpg,0,5.35282349586487,0,0,0.3,0,0.766955375671387,0.747959852218628,1,0,0,0,0,1605249066.04311,1605249066.05755,1605249080.9823,1605249086.351,1605249088.45179,1605249089.6189,1605249090.38845,1605249090.38585,0,1605249664.0366
4,3,2,3,2,c2_WhyHand,1,healthy?,23,H_364.jpg,0,5.35282349586487,0,0,0.3,0,0.950358867645264,0.944199085235596,1,0,0,0,0,1605249066.04311,1605249066.05755,1605249080.9823,1605249086.351,1605249088.45179,1605249090.70264,1605249091.66745,1605249091.653,0,1605249664.0366
4,3,2,4,2,c2_WhyHand,2,healthy?,22,H_130.jpg,0,5.35282349586487,0,0,0.3,0,0.800302028656006,0.786020040512085,1,0,0,0,0,1605249066.04311,1605249066.05755,1605249080.9823,1605249086.351,1605249088.45179,1605249091.96978,1605249092.77237,1605249092.77009,0,1605249664.0366
4,3,2,5,2,c2_WhyHand,1,healthy?,17,H_362.jpg,0,5.35282349586487,0,0,0.3,0,0.850321054458618,0.842571020126343,1,0,0,0,0,1605249066.04311,1605249066.05755,1605249080.9823,1605249086.351,1605249088.45179,1605249093.08687,1605249093.95065,1605249093.93719,0,1605249664.0366
4,3,2,6,2,c2_WhyHand,2,healthy?,20,H_007.jpg,0,5.35282349586487,0,0,0.3,0,0.816974401473999,0.796967029571533,1,0,0,0,0,1605249066.04311,1605249066.05755,1605249080.9823,1605249086.351,1605249088.45179,1605249094.25398,1605249095.07286,1605249095.07095,0,1605249664.0366
4,3,2,7,2,c2_WhyHand,1,healthy?,19,H_167.jpg,0,5.35282349586487,0,0,0.3,0,0.700265169143677,0.691058158874512,2,0,0,0,0,1605249066.04311,1605249066.05755,1605249080.9823,1605249086.351,1605249088.45179,1605249095.38774,1605249096.10022,1605249096.08801,0,1605249664.0366
4,3,2,8,2,c2_WhyHand,2,healthy?,24,H_019.jpg,0,5.35282349586487,0,0,0.3,0,0.800302028656006,0.782274961471558,2,0,0,0,0,1605249066.04311,1605249066.05755,1605249080.9823,1605249086.351,1605249088.45179,1605249096.40479,1605249097.20761,1605249097.20509,0,1605249664.0366
4,3,3,1,1,c1_WhyFace,1,admiring?,4,F_779.jpg,0,8.13815140724182,0,0,2.10079336166382,0,0.750282764434814,0.728351831436157,1,0,0,0,0,1605249066.04311,1605249066.05755,1605249097.30513,1605249105.45821,1605249107.559,1605249107.70906,1605249108.46154,1605249108.45934,0,1605249664.0366
4,3,3,2,1,c1_WhyFace,1,admiring?,1,F_593.jpg,0,8.13815140724182,0,0,0.3,0,0.616900205612183,0.609442949295044,1,0,0,0,0,1605249066.04311,1605249066.05755,1605249097.30513,1605249105.45821,1605249107.559,1605249108.77613,1605249109.40059,1605249109.39303,0,1605249664.0366
4,3,3,3,1,c1_WhyFace,2,admiring?,3,F_110.jpg,0,8.13815140724182,0,0,0.3,0,0.683591604232788,0.661934852600098,1,0,0,0,0,1605249066.04311,1605249066.05755,1605249097.30513,1605249105.45821,1605249107.559,1605249109.70981,1605249110.39482,1605249110.39341,0,1605249664.0366
4,3,3,4,1,c1_WhyFace,1,admiring?,8,F_590.jpg,0,8.13815140724182,0,0,0.3,0,0.750282526016235,0.744034051895142,1,0,0,0,0,1605249066.04311,1605249066.05755,1605249097.30513,1605249105.45821,1605249107.559,1605249110.71019,1605249111.46708,1605249111.46047,0,1605249664.0366
4,3,3,5,1,c1_WhyFace,2,admiring?,6,F_692.jpg,0,8.13815140724182,0,0,0.3,0,0.466843605041504,0.451533079147339,1,0,0,0,0,1605249066.04311,1605249066.05755,1605249097.30513,1605249105.45821,1605249107.559,1605249111.77726,1605249112.25026,1605249112.2441,0,1605249664.0366
4,3,3,6,1,c1_WhyFace,1,admiring?,5,F_759.jpg,0,8.13815140724182,0,0,0.3,0,0.666917562484741,0.653956174850464,1,0,0,0,0,1605249066.04311,1605249066.05755,1605249097.30513,1605249105.45821,1605249107.559,1605249112.56089,1605249113.23433,1605249113.22781,0,1605249664.0366
4,3,3,7,1,c1_WhyFace,1,admiring?,7,F_648.jpg,0,8.13815140724182,0,0,0.3,0,0.650245428085327,0.635798215866089,1,0,0,0,0,1605249066.04311,1605249066.05755,1605249097.30513,1605249105.45821,1605249107.559,1605249113.5446,1605249114.20026,1605249114.19484,0,1605249664.0366
4,3,3,8,1,c1_WhyFace,2,admiring?,2,F_129.jpg,0,8.13815140724182,0,0,0.3,0,0.666918039321899,0.659905195236206,1,0,0,0,0,1605249066.04311,1605249066.05755,1605249097.30513,1605249105.45821,1605249107.559,1605249114.51163,1605249115.18386,1605249115.17854,0,1605249664.0366
4,3,4,1,3,c3_HowFace,1,smiling?,119,F_139.jpg,0,9.14555311203003,0,0,2.10079336166382,0,1.30048990249634,1.28678107261658,1,0,0,0,0,1605249066.04311,1605249066.05755,1605249115.26191,1605249124.41536,1605249126.51616,1605249126.66621,1605249127.96875,1605249127.9667,0,1605249664.0366
4,3,4,2,3,c3_HowFace,2,smiling?,113,F_712.jpg,0,9.14555311203003,0,0,0.3,0,0.450170040130615,0.428078889846802,1,0,0,0,0,1605249066.04311,1605249066.05755,1605249115.26191,1605249124.41536,1605249126.51616,1605249128.28349,1605249128.73561,1605249128.73366,0,1605249664.0366
4,3,4,3,3,c3_HowFace,1,smiling?,115,F_695.jpg,0,9.14555311203003,0,0,0.3,0,0.350131988525391,0.342545032501221,2,0,0,0,0,1605249066.04311,1605249066.05755,1605249115.26191,1605249124.41536,1605249126.51616,1605249129.05045,1605249129.41743,1605249129.40058,0,1605249664.0366
4,3,4,4,3,c3_HowFace,2,smiling?,120,F_758.jpg,0,9.14555311203003,0,0,0.3,0,0.350132942199707,0.339603185653687,1,0,0,0,0,1605249066.04311,1605249066.05755,1605249115.26191,1605249124.41536,1605249126.51616,1605249129.71737,1605249130.06965,1605249130.0675,0,1605249664.0366
4,3,4,5,3,c3_HowFace,1,smiling?,116,F_083.jpg,0,9.14555311203003,0,0,0.3,0,0.266767263412476,0.247551202774048,2,0,0,0,0,1605249066.04311,1605249066.05755,1605249115.26191,1605249124.41536,1605249126.51616,1605249130.38428,1605249130.65332,1605249130.65105,0,1605249664.0366
4,3,4,6,3,c3_HowFace,1,smiling?,118,F_759.jpg,0,9.14555311203003,0,0,0.3,0,0.266766548156738,0.259291887283325,1,0,0,0,0,1605249066.04311,1605249066.05755,1605249115.26191,1605249124.41536,1605249126.51616,1605249130.96784,1605249131.25134,1605249131.2346,0,1605249664.0366
4,3,4,7,3,c3_HowFace,2,smiling?,114,F_412.jpg,0,9.14555311203003,0,0,0.3,0,0.300113201141357,0.278820037841797,2,0,0,0,0,1605249066.04311,1605249066.05755,1605249115.26191,1605249124.41536,1605249126.51616,1605249131.55139,1605249131.85349,1605249131.8515,0,1605249664.0366
4,3,4,8,3,c3_HowFace,1,smiling?,117,F_593.jpg,0,9.14555311203003,0,0,0.3,0,0.250096321105957,0.243985891342163,1,0,0,0,0,1605249066.04311,1605249066.05755,1605249115.26191,1605249124.41536,1605249126.51616,1605249132.16829,1605249132.43434,1605249132.41839,0,1605249664.0366
4,3,5,1,4,c4_HowHand,1,lifting?,56,H_136.jpg,0,9.43650674819946,0,0,2.10079336166382,0,0.700263977050781,0.690465927124023,1,0,0,0,0,1605249066.04311,1605249066.05755,1605249132.50175,1605249141.95532,1605249144.05611,1605249144.20617,1605249144.91735,1605249144.90643,0,1605249664.0366
4,3,5,2,4,c4_HowHand,2,lifting?,51,H_038.jpg,0,9.43650674819946,0,0,0.3,0,0.400150299072266,0.379178047180176,1,0,0,0,0,1605249066.04311,1605249066.05755,1605249132.50175,1605249141.95532,1605249144.05611,1605249145.22322,1605249145.62521,1605249145.62337,0,1605249664.0366
4,3,5,3,4,c4_HowHand,1,lifting?,52,H_189.jpg,0,9.43650674819946,0,0,0.3,0,0.266766309738159,0.260926961898804,2,0,0,0,0,1605249066.04311,1605249066.05755,1605249132.50175,1605249141.95532,1605249144.05611,1605249145.94016,1605249146.21756,1605249146.20692,0,1605249664.0366
4,3,5,4,4,c4_HowHand,2,lifting?,53,H_077.jpg,0,9.43650674819946,0,0,0.3,0,0.266766309738159,0.256777048110962,2,0,0,0,0,1605249066.04311,1605249066.05755,1605249132.50175,1605249141.95532,1605249144.05611,1605249146.52371,1605249146.80098,1605249146.79048,0,1605249664.0366
4,3,5,5,4,c4_HowHand,1,lifting?,50,H_443.jpg,0,9.43650674819946,0,0,0.3,0,0.250093221664429,0.241222143173218,1,0,0,0,0,1605249066.04311,1605249066.05755,1605249132.50175,1605249141.95532,1605249144.05611,1605249147.10726,1605249147.36712,1605249147.35736,0,1605249664.0366
4,3,5,6,4,c4_HowHand,2,lifting?,55,H_012.jpg,0,9.43650674819946,0,0,0.3,0,0.200075626373291,0.180957078933716,2,0,0,0,0,1605249066.04311,1605249066.05755,1605249132.50175,1605249141.95532,1605249144.05611,1605249147.67414,1605249147.87584,1605249147.87422,0,1605249664.0366
4,3,5,7,4,c4_HowHand,1,lifting?,49,H_362.jpg,0,9.43650674819946,0,0,0.3,0,0.166729927062988,0.152556896209717,1,0,0,0,0,1605249066.04311,1605249066.05755,1605249132.50175,1605249141.95532,1605249144.05611,1605249148.19101,1605249148.36863,1605249148.35774,0,1605249664.0366
4,3,5,8,4,c4_HowHand,1,lifting?,54,H_170.jpg,0,9.43650674819946,0,0,0.3,0,0.166730642318726,0.152609825134277,2,0,0,0,0,1605249066.04311,1605249066.05755,1605249132.50175,1605249141.95532,1605249144.05611,1605249148.67452,1605249148.85239,1605249148.84125,0,1605249664.0366
4,3,6,1,2,c2_WhyHand,1,helping?,38,H_077.jpg,0,15.4941318035126,0,0,2.10079288482666,0,0.566879987716675,0.552356004714966,1,0,0,0,0,1605249066.04311,1605249066.05755,1605249148.92462,1605249164.43047,1605249166.53126,1605249166.68132,1605249167.25046,1605249167.2482,0,1605249664.0366
4,3,6,2,2,c2_WhyHand,1,helping?,36,H_349.jpg,0,15.4941318035126,0,0,0.3,0,0.350132942199707,0.328670978546143,1,0,0,0,0,1605249066.04311,1605249066.05755,1605249148.92462,1605249164.43047,1605249166.53126,1605249167.56498,1605249167.91718,1605249167.91512,0,1605249664.0366
4,3,6,3,2,c2_WhyHand,1,helping?,37,H_474.jpg,0,15.4941318035126,0,0,0.3,0,0.300111770629883,0.285152912139893,1,0,0,0,0,1605249066.04311,1605249066.05755,1605249148.92462,1605249164.43047,1605249166.53126,1605249168.2319,1605249168.53341,1605249168.53202,0,1605249664.0366
4,3,6,4,2,c2_WhyHand,1,helping?,39,H_024.jpg,0,15.4941318035126,0,0,0.3,0,0.333459854125977,0.313500881195068,1,0,0,0,0,1605249066.04311,1605249066.05755,1605249148.92462,1605249164.43047,1605249166.53126,1605249168.8488,1605249169.18457,1605249169.18226,0,1605249664.0366
4,3,6,5,2,c2_WhyHand,2,helping?,40,H_012.jpg,0,15.4941318035126,0,0,0.3,0,0.266765832901001,0.246646881103516,2,0,0,0,0,1605249066.04311,1605249066.05755,1605249148.92462,1605249164.43047,1605249166.53126,1605249169.49905,1605249169.76781,1605249169.76582,0,1605249664.0366
4,3,6,6,2,c2_WhyHand,2,helping?,35,H_159.jpg,0,15.4941318035126,0,0,0.3,0,0.300113916397095,0.293337821960449,1,0,0,0,0,1605249066.04311,1605249066.05755,1605249148.92462,1605249164.43047,1605249166.53126,1605249170.0826,1605249170.40096,1605249170.38272,0,1605249664.0366
4,3,6,7,2,c2_WhyHand,1,helping?,34,H_111.jpg,0,15.4941318035126,0,0,0.3,0,0.800302505493164,0.782449007034302,1,0,0,0,0,1605249066.04311,1605249066.05755,1605249148.92462,1605249164.43047,1605249166.53126,1605249170.6995,1605249171.50167,1605249171.4998,0,1605249664.0366
4,3,6,8,2,c2_WhyHand,2,helping?,33,H_091.jpg,0,15.4941318035126,0,0,0.3,0,0.750283241271973,0.731723785400391,2,0,0,0,0,1605249066.04311,1605249066.05755,1605249148.92462,1605249164.43047,1605249166.53126,1605249171.81659,1605249172.5693,1605249172.56687,0,1605249664.0366
4,3,7,1,1,c1_WhyFace,1,proud?,104,F_598.jpg,0,9.66042733192444,0,0,2.1007924079895,0,1.51723837852478,1.5112030506134,1,0,0,0,0,1605249066.04311,1605249066.05755,1605249172.63357,1605249182.30388,1605249184.40468,1605249184.55473,1605249186.08437,1605249186.07197,0,1605249664.0366
4,3,7,2,1,c1_WhyFace,2,proud?,102,F_760.jpg,0,9.66042733192444,0,0,0.3,0,0.450169563293457,0.431084156036377,1,0,0,0,0,1605249066.04311,1605249066.05755,1605249172.63357,1605249182.30388,1605249184.40468,1605249186.38876,1605249186.84139,1605249186.83893,0,1605249664.0366
4,3,7,3,1,c1_WhyFace,1,proud?,97,F_582.jpg,0,9.66042733192444,0,0,0.3,0,0.616899490356445,0.60184383392334,2,0,0,0,0,1605249066.04311,1605249066.05755,1605249172.63357,1605249182.30388,1605249184.40468,1605249187.15571,1605249187.77467,1605249187.77261,0,1605249664.0366
4,3,7,4,1,c1_WhyFace,2,proud?,98,F_412.jpg,0,9.66042733192444,0,0,0.3,0,0.483515977859497,0.47035813331604,1,0,0,0,0,1605249066.04311,1605249066.05755,1605249172.63357,1605249182.30388,1605249184.40468,1605249188.0894,1605249188.5755,1605249188.57291,0,1605249664.0366
4,3,7,5,1,c1_WhyFace,1,proud?,101,F_083.jpg,0,9.66042733192444,0,0,0.3,0,0.550206899642944,0.530098915100098,1,0,0,0,0,1605249066.04311,1605249066.05755,1605249172.63357,1605249182.30388,1605249184.40468,1605249188.8897,1605249189.44245,1605249189.43991,0,1605249664.0366
4,3,7,6,1,c1_WhyFace,2,proud?,100,F_776.jpg,0,9.66042733192444,0,0,0.3,0,0.633572578430176,0.626066207885742,1,0,0,0,0,1605249066.04311,1605249066.05755,1605249172.63357,1605249182.30388,1605249184.40468,1605249189.7567,1605249190.40094,1605249190.39027,0,1605249664.0366
4,3,7,7,1,c1_WhyFace,1,proud?,103,F_618.jpg,0,9.66042733192444,0,0,0.3,0,1.01705074310303,1.00189113616943,1,0,0,0,0,1605249066.04311,1605249066.05755,1605249172.63357,1605249182.30388,1605249184.40468,1605249190.70705,1605249191.7261,1605249191.7241,0,1605249664.0366
4,3,7,8,1,c1_WhyFace,1,proud?,99,F_695.jpg,0,9.66042733192444,0,0,0.3,0,0.66691780090332,0.646989107131958,1,0,0,0,0,1605249066.04311,1605249066.05755,1605249172.63357,1605249182.30388,1605249184.40468,1605249192.04089,1605249192.71027,1605249192.70781,0,1605249664.0366
4,3,8,1,3,c3_HowFace,1,looking to side?,72,F_590.jpg,0,7.04970788955688,0,0,2.10079407691956,0,1.71731567382812,0,0,0,0,0,0,1605249066.04311,1605249066.05755,1605249192.7745,1605249199.82716,1605249201.92796,1605249202.07801,0,1605249203.79533,0,1605249664.0366
4,3,8,2,3,c3_HowFace,1,looking to side?,71,F_433.jpg,0,7.04970788955688,0,0,0.3,0,1.51723957061768,1.50159406661987,1,0,0,0,0,1605249066.04311,1605249066.05755,1605249192.7745,1605249199.82716,1605249201.92796,1605249204.11211,1605249205.63454,1605249205.62935,0,1605249664.0366
4,3,8,3,3,c3_HowFace,1,looking to side?,67,F_716.jpg,0,7.04970788955688,0,0,0.3,0,0.450169086456299,0.432673215866089,1,0,0,0,0,1605249066.04311,1605249066.05755,1605249192.7745,1605249199.82716,1605249201.92796,1605249205.94614,1605249206.40076,1605249206.39631,0,1605249664.0366
4,3,8,4,3,c3_HowFace,2,looking to side?,70,F_779.jpg,0,7.04970788955688,0,0,0.3,0,0.716936588287354,0.702941179275513,2,0,0,0,0,1605249066.04311,1605249066.05755,1605249192.7745,1605249199.82716,1605249201.92796,1605249206.7131,1605249207.43396,1605249207.43003,0,1605249664.0366
4,3,8,5,3,c3_HowFace,1,looking to side?,68,F_760.jpg,0,7.04970788955688,0,0,0.3,0,0.566880941390991,0.545051097869873,1,0,0,0,0,1605249066.04311,1605249066.05755,1605249192.7745,1605249199.82716,1605249201.92796,1605249207.74682,1605249208.31609,1605249208.3137,0,1605249664.0366
4,3,8,6,3,c3_HowFace,2,looking to side?,66,F_111.jpg,0,7.04970788955688,0,0,0.3,0,0.800301551818848,0.789690971374512,2,0,0,0,0,1605249066.04311,1605249066.05755,1605249192.7745,1605249199.82716,1605249201.92796,1605249208.63049,1605249209.43438,1605249209.43079,0,1605249664.0366
4,3,8,7,3,c3_HowFace,1,looking to side?,69,F_110.jpg,0,7.04970788955688,0,0,0.3,0,1.71731424331665,0,0,0,0,0,0,1605249066.04311,1605249066.05755,1605249192.7745,1605249199.82716,1605249201.92796,1605249209.74757,0,1605249211.46489,0,1605249664.0366
4,3,8,8,3,c3_HowFace,2,looking to side?,65,F_798.jpg,0,7.04970788955688,0,0,0.3,0,1.71731543540955,0,0,0,0,0,0,1605249066.04311,1605249066.05755,1605249192.7745,1605249199.82716,1605249201.92796,1605249211.78168,0,1605249213.49899,0,1605249664.0366
4,3,9,1,1,c1_WhyFace,1,argument?,43,F_716.jpg,0,5.09980273246765,0,0,2.08411884307861,0,1.73398780822754,0,0,0,0,0,0,1605249066.04311,1605249066.05755,1605249213.83245,1605249218.95105,1605249221.03517,1605249221.18523,0,1605249222.91921,0,1605249664.0366
4,3,9,2,1,c1_WhyFace,2,argument?,44,F_139.jpg,0,5.09980273246765,0,0,0.3,0,1.71731424331665,0,0,0,0,0,0,1605249066.04311,1605249066.05755,1605249213.83245,1605249218.95105,1605249221.03517,1605249223.236,0,1605249224.95331,0,1605249664.0366
4,3,9,3,1,c1_WhyFace,1,argument?,41,F_712.jpg,0,5.09980273246765,0,0,0.3,0,1.71731638908386,0,0,0,0,0,0,1605249066.04311,1605249066.05755,1605249213.83245,1605249218.95105,1605249221.03517,1605249225.2701,0,1605249226.98742,0,1605249664.0366
4,3,9,4,1,c1_WhyFace,2,argument?,45,F_433.jpg,0,5.09980273246765,0,0,0.3,0,1.71731472015381,0,0,0,0,0,0,1605249066.04311,1605249066.05755,1605249213.83245,1605249218.95105,1605249221.03517,1605249227.3042,0,1605249229.02152,0,1605249664.0366
4,3,9,5,1,c1_WhyFace,1,argument?,42,F_403.jpg,0,5.09980273246765,0,0,0.3,0,1.71731424331665,0,0,0,0,0,0,1605249066.04311,1605249066.05755,1605249213.83245,1605249218.95105,1605249221.03517,1605249229.3383,0,1605249231.05562,0,1605249664.0366
4,3,9,6,1,c1_WhyFace,2,argument?,46,F_844.jpg,0,5.09980273246765,0,0,0.3,0,1.71731519699097,0,0,0,0,0,0,1605249066.04311,1605249066.05755,1605249213.83245,1605249218.95105,1605249221.03517,1605249231.3724,0,1605249233.08972,0,1605249664.0366
4,3,9,7,1,c1_WhyFace,1,argument?,47,F_743.jpg,0,5.09980273246765,0,0,0.3,0,1.71731543540955,0,0,0,0,0,0,1605249066.04311,1605249066.05755,1605249213.83245,1605249218.95105,1605249221.03517,1605249233.4065,0,1605249235.12382,0,1605249664.0366
4,3,9,8,1,c1_WhyFace,1,argument?,48,F_758.jpg,0,5.09980273246765,0,0,0.3,0,1.71731448173523,0,0,0,0,0,0,1605249066.04311,1605249066.05755,1605249213.83245,1605249218.95105,1605249221.03517,1605249235.44061,0,1605249237.15792,0,1605249664.0366
4,3,10,1,3,c3_HowFace,1,open mouth?,80,F_844.jpg,0,0.0137910842895508,0,0,1.367182970047,0,1.71731424331665,0,0,0,0,0,0,1605249066.04311,1605249066.05755,1605249237.49138,1605249237.50805,1605249238.87524,1605249239.02529,0,1605249240.74261,0,1605249664.0366
4,3,10,2,3,c3_HowFace,1,open mouth?,74,F_776.jpg,0,0.0137910842895508,0,0,0.3,0,1.71731448173523,0,0,0,0,0,0,1605249066.04311,1605249066.05755,1605249237.49138,1605249237.50805,1605249238.87524,1605249241.05939,0,1605249242.77671,0,1605249664.0366
4,3,10,3,3,c3_HowFace,2,open mouth?,76,F_544.jpg,0,0.0137910842895508,0,0,0.3,0,1.71731519699097,0,0,0,0,0,0,1605249066.04311,1605249066.05755,1605249237.49138,1605249237.50805,1605249238.87524,1605249243.09349,0,1605249244.81081,0,1605249664.0366
4,3,10,4,3,c3_HowFace,1,open mouth?,78,F_692.jpg,0,0.0137910842895508,0,0,0.3,0,1.71731472015381,0,0,0,0,0,0,1605249066.04311,1605249066.05755,1605249237.49138,1605249237.50805,1605249238.87524,1605249245.1276,0,1605249246.84491,0,1605249664.0366
4,3,10,5,3,c3_HowFace,2,open mouth?,77,F_584.jpg,0,0.0137910842895508,0,0,0.3,0,1.71731519699097,0,0,0,0,0,0,1605249066.04311,1605249066.05755,1605249237.49138,1605249237.50805,1605249238.87524,1605249247.1617,0,1605249248.87901,0,1605249664.0366
4,3,10,6,3,c3_HowFace,1,open mouth?,73,F_403.jpg,0,0.0137910842895508,0,0,0.3,0,1.71731543540955,0,0,0,0,0,0,1605249066.04311,1605249066.05755,1605249237.49138,1605249237.50805,1605249238.87524,1605249249.1958,0,1605249250.91311,0,1605249664.0366
4,3,10,7,3,c3_HowFace,1,open mouth?,75,F_086.jpg,0,0.0137910842895508,0,0,0.3,0,1.71731400489807,0,0,0,0,0,0,1605249066.04311,1605249066.05755,1605249237.49138,1605249237.50805,1605249238.87524,1605249251.2299,0,1605249252.94721,0,1605249664.0366
4,3,10,8,3,c3_HowFace,2,open mouth?,79,F_648.jpg,0,0.0137910842895508,0,0,0.3,0,1.71731472015381,0,0,0,0,0,0,1605249066.04311,1605249066.05755,1605249237.49138,1605249237.50805,1605249238.87524,1605249253.264,0,1605249254.98131,0,1605249664.0366
4,3,11,1,4,c4_HowHand,1,pressing button?,88,H_019.jpg,0,0.00861525535583496,0,0,1.43387413024902,0,1.71731543540955,0,0,0,0,0,0,1605249066.04311,1605249066.05755,1605249255.31477,1605249255.33145,1605249256.76532,1605249256.91538,0,1605249258.63269,0,1605249664.0366
4,3,11,2,4,c4_HowHand,2,pressing button?,87,H_024.jpg,0,0.00861525535583496,0,0,0.3,0,1.71731519699097,0,0,0,0,0,0,1605249066.04311,1605249066.05755,1605249255.31477,1605249255.33145,1605249256.76532,1605249258.94948,0,1605249260.6668,0,1605249664.0366
4,3,11,3,4,c4_HowHand,2,pressing button?,85,H_130.jpg,0,0.00861525535583496,0,0,0.3,0,1.71731495857239,0,0,0,0,0,0,1605249066.04311,1605249066.05755,1605249255.31477,1605249255.33145,1605249256.76532,1605249260.98358,0,1605249262.7009,0,1605249664.0366
4,3,11,4,4,c4_HowHand,1,pressing button?,83,H_502.jpg,0,0.00861525535583496,0,0,0.3,0,1.71731543540955,0,0,0,0,0,0,1605249066.04311,1605249066.05755,1605249255.31477,1605249255.33145,1605249256.76532,1605249263.01768,0,1605249264.735,0,1605249664.0366
4,3,11,5,4,c4_HowHand,2,pressing button?,81,H_261.jpg,0,0.00861525535583496,0,0,0.3,0,1.71731495857239,0,0,0,0,0,0,1605249066.04311,1605249066.05755,1605249255.31477,1605249255.33145,1605249256.76532,1605249265.05178,0,1605249266.7691,0,1605249664.0366
4,3,11,6,4,c4_HowHand,1,pressing button?,86,H_332.jpg,0,0.00861525535583496,0,0,0.3,0,1.71731472015381,0,0,0,0,0,0,1605249066.04311,1605249066.05755,1605249255.31477,1605249255.33145,1605249256.76532,1605249267.08588,0,1605249268.8032,0,1605249664.0366
4,3,11,7,4,c4_HowHand,1,pressing button?,82,H_126.jpg,0,0.00861525535583496,0,0,0.3,0,1.71731495857239,0,0,0,0,0,0,1605249066.04311,1605249066.05755,1605249255.31477,1605249255.33145,1605249256.76532,1605249269.11999,0,1605249270.8373,0,1605249664.0366
4,3,11,8,4,c4_HowHand,1,pressing button?,84,H_483.jpg,0,0.00861525535583496,0,0,0.3,0,1.71731615066528,0,0,0,0,0,0,1605249066.04311,1605249066.05755,1605249255.31477,1605249255.33145,1605249256.76532,1605249271.15409,0,1605249272.8714,0,1605249664.0366
4,3,12,1,2,c2_WhyHand,1,competing?,9,H_261.jpg,0,0.0168793201446533,0,0,1.30049109458923,0,1.71731472015381,0,0,0,0,0,0,1605249066.04311,1605249066.05755,1605249273.22153,1605249273.25488,1605249274.55537,1605249274.70543,0,1605249276.42274,0,1605249664.0366
4,3,12,2,2,c2_WhyHand,2,competing?,12,H_483.jpg,0,0.0168793201446533,0,0,0.3,0,1.71731519699097,0,0,0,0,0,0,1605249066.04311,1605249066.05755,1605249273.22153,1605249273.25488,1605249274.55537,1605249276.73953,0,1605249278.45684,0,1605249664.0366
4,3,12,3,2,c2_WhyHand,1,competing?,14,H_132.jpg,0,0.0168793201446533,0,0,0.3,0,1.71731543540955,0,0,0,0,0,0,1605249066.04311,1605249066.05755,1605249273.22153,1605249273.25488,1605249274.55537,1605249278.77363,0,1605249280.49094,0,1605249664.0366
4,3,12,4,2,c2_WhyHand,2,competing?,10,H_126.jpg,0,0.0168793201446533,0,0,0.3,0,1.71731424331665,0,0,0,0,0,0,1605249066.04311,1605249066.05755,1605249273.22153,1605249273.25488,1605249274.55537,1605249280.80773,0,1605249282.52504,0,1605249664.0366
4,3,12,5,2,c2_WhyHand,1,competing?,16,H_136.jpg,0,0.0168793201446533,0,0,0.3,0,1.71731472015381,0,0,0,0,0,0,1605249066.04311,1605249066.05755,1605249273.22153,1605249273.25488,1605249274.55537,1605249282.84183,0,1605249284.55915,0,1605249664.0366
4,3,12,6,2,c2_WhyHand,2,competing?,11,H_502.jpg,0,0.0168793201446533,0,0,0.3,0,1.71731638908386,0,0,0,0,0,0,1605249066.04311,1605249066.05755,1605249273.22153,1605249273.25488,1605249274.55537,1605249284.87593,0,1605249286.59325,0,1605249664.0366
4,3,12,7,2,c2_WhyHand,1,competing?,13,H_003.jpg,0,0.0168793201446533,0,0,0.3,0,1.71731519699097,0,0,0,0,0,0,1605249066.04311,1605249066.05755,1605249273.22153,1605249273.25488,1605249274.55537,1605249286.91003,0,1605249288.62735,0,1605249664.0366
4,3,12,8,2,c2_WhyHand,1,competing?,15,H_170.jpg,0,0.0168793201446533,0,0,0.3,0,1.71731543540955,0,0,0,0,0,0,1605249066.04311,1605249066.05755,1605249273.22153,1605249273.25488,1605249274.55537,1605249288.94413,0,1605249290.66145,0,1605249664.0366
4,3,13,1,1,c1_WhyFace,1,self-doubt?,29,F_544.jpg,0,0.0124409198760986,0,0,1.61727905273438,0,1.71731567382812,0,0,0,0,0,0,1605249066.04311,1605249066.05755,1605249290.99491,1605249291.01158,1605249292.62886,1605249292.77891,0,1605249294.49623,0,1605249664.0366
4,3,13,2,1,c1_WhyFace,2,self-doubt?,27,F_086.jpg,0,0.0124409198760986,0,0,0.3,0,1.71731519699097,0,0,0,0,0,0,1605249066.04311,1605249066.05755,1605249290.99491,1605249291.01158,1605249292.62886,1605249294.81302,0,1605249296.53033,0,1605249664.0366
4,3,13,3,1,c1_WhyFace,1,self-doubt?,25,F_798.jpg,0,0.0124409198760986,0,0,0.3,0,1.71731424331665,0,0,0,0,0,0,1605249066.04311,1605249066.05755,1605249290.99491,1605249291.01158,1605249292.62886,1605249296.84712,0,1605249298.56443,0,1605249664.0366
4,3,13,4,1,c1_WhyFace,1,self-doubt?,26,F_111.jpg,0,0.0124409198760986,0,0,0.3,0,1.71731472015381,0,0,0,0,0,0,1605249066.04311,1605249066.05755,1605249290.99491,1605249291.01158,1605249292.62886,1605249298.88122,0,1605249300.59853,0,1605249664.0366
4,3,13,5,1,c1_WhyFace,2,self-doubt?,31,F_774.jpg,0,0.0124409198760986,0,0,0.3,0,1.71731495857239,0,0,0,0,0,0,1605249066.04311,1605249066.05755,1605249290.99491,1605249291.01158,1605249292.62886,1605249300.91532,0,1605249302.63264,0,1605249664.0366
4,3,13,6,1,c1_WhyFace,1,self-doubt?,28,F_754.jpg,0,0.0124409198760986,0,0,0.3,0,1.71731472015381,0,0,0,0,0,0,1605249066.04311,1605249066.05755,1605249290.99491,1605249291.01158,1605249292.62886,1605249302.94942,0,1605249304.66674,0,1605249664.0366
4,3,13,7,1,c1_WhyFace,2,self-doubt?,32,F_128.jpg,0,0.0124409198760986,0,0,0.3,0,1.71731376647949,0,0,0,0,0,0,1605249066.04311,1605249066.05755,1605249290.99491,1605249291.01158,1605249292.62886,1605249304.98352,0,1605249306.70084,0,1605249664.0366
4,3,13,8,1,c1_WhyFace,1,self-doubt?,30,F_584.jpg,0,0.0124409198760986,0,0,0.3,0,1.3671817779541,1.34683609008789,1,0,0,0,0,1605249066.04311,1605249066.05755,1605249290.99491,1605249291.01158,1605249292.62886,1605249307.01762,1605249308.38668,1605249308.38481,0,1605249664.0366
4,3,14,1,3,c3_HowFace,1,looking at camera?,64,F_128.jpg,0,1.12444615364075,0,0,2.10079336166382,0,1.7173159122467,0,0,0,0,0,0,1605249066.04311,1605249066.05755,1605249308.4515,1605249309.58526,1605249311.68605,1605249311.83611,0,1605249313.55342,0,1605249664.0366
4,3,14,2,3,c3_HowFace,1,looking at camera?,60,F_618.jpg,0,1.12444615364075,0,0,0.3,0,0.750282764434814,0.729902029037476,1,0,0,0,0,1605249066.04311,1605249066.05755,1605249308.4515,1605249309.58526,1605249311.68605,1605249313.87021,1605249314.62251,1605249314.62049,0,1605249664.0366
4,3,14,3,3,c3_HowFace,1,looking at camera?,62,F_598.jpg,0,1.12444615364075,0,0,0.3,0,0.56688117980957,0.55412483215332,1,0,0,0,0,1605249066.04311,1605249066.05755,1605249308.4515,1605249309.58526,1605249311.68605,1605249314.93728,1605249315.50602,1605249315.50416,0,1605249664.0366
4,3,14,4,3,c3_HowFace,2,looking at camera?,63,F_743.jpg,0,1.12444615364075,0,0,0.3,0,0.766956567764282,0.761048793792725,1,0,0,0,0,1605249066.04311,1605249066.05755,1605249308.4515,1605249309.58526,1605249311.68605,1605249315.82095,1605249316.60117,1605249316.5879,0,1605249664.0366
4,3,14,5,3,c3_HowFace,1,looking at camera?,61,F_774.jpg,0,1.12444615364075,0,0,0.3,0,0.566880702972412,0.560704946517944,2,0,0,0,0,1605249066.04311,1605249066.05755,1605249308.4515,1605249309.58526,1605249311.68605,1605249316.90469,1605249317.48522,1605249317.47157,0,1605249664.0366
4,3,14,6,3,c3_HowFace,2,looking at camera?,57,F_582.jpg,0,1.12444615364075,0,0,0.3,0,0.66691780090332,0.646700143814087,1,0,0,0,0,1605249066.04311,1605249066.05755,1605249308.4515,1605249309.58526,1605249311.68605,1605249317.78836,1605249318.45713,1605249318.45527,0,1605249664.0366
4,3,14,7,3,c3_HowFace,2,looking at camera?,58,F_754.jpg,0,1.12444615364075,0,0,0.3,0,0.766957759857178,0.757584095001221,1,0,0,0,0,1605249066.04311,1605249066.05755,1605249308.4515,1605249309.58526,1605249311.68605,1605249318.77206,1605249319.55154,1605249319.53902,0,1605249664.0366
4,3,14,8,3,c3_HowFace,1,looking at camera?,59,F_129.jpg,0,1.12444615364075,0,0,0.3,0,0.850320339202881,0.837133169174194,1,0,0,0,0,1605249066.04311,1605249066.05755,1605249308.4515,1605249309.58526,1605249311.68605,1605249319.8558,1605249320.7083,1605249320.70612,0,1605249664.0366
4,3,15,1,4,c4_HowHand,1,both hands?,123,H_167.jpg,0,7.59326601028442,0,0,2.10079455375671,0,1.71731543540955,0,0,0,0,0,0,1605249066.04311,1605249066.05755,1605249320.77282,1605249328.37568,1605249330.47648,1605249330.62653,0,1605249332.34385,0,1605249664.0366
4,3,15,2,4,c4_HowHand,2,both hands?,121,H_091.jpg,0,7.59326601028442,0,0,0.3,0,1.26714491844177,1.25687479972839,1,0,0,0,0,1605249066.04311,1605249066.05755,1605249320.77282,1605249328.37568,1605249330.47648,1605249332.66064,1605249333.93511,1605249333.92778,0,1605249664.0366
4,3,15,3,4,c4_HowHand,2,both hands?,125,H_627.jpg,0,7.59326601028442,0,0,0.3,0,1.16710662841797,1.14790821075439,1,0,0,0,0,1605249066.04311,1605249066.05755,1605249320.77282,1605249328.37568,1605249330.47648,1605249334.24457,1605249335.41405,1605249335.41167,0,1605249664.0366
4,3,15,4,4,c4_HowHand,1,both hands?,128,H_027.jpg,0,7.59326601028442,0,0,0.3,0,0.850321292877197,0.841361999511719,1,0,0,0,0,1605249066.04311,1605249066.05755,1605249320.77282,1605249328.37568,1605249330.47648,1605249335.72846,1605249336.58454,1605249336.57878,0,1605249664.0366
4,3,15,5,4,c4_HowHand,1,both hands?,122,H_111.jpg,0,7.59326601028442,0,0,0.3,0,1.71731567382812,0,0,0,0,0,0,1605249066.04311,1605249066.05755,1605249320.77282,1605249328.37568,1605249330.47648,1605249336.89557,0,1605249338.61288,0,1605249664.0366
4,3,15,6,4,c4_HowHand,2,both hands?,126,H_159.jpg,0,7.59326601028442,0,0,0.3,0,1.71731495857239,0,0,0,0,0,0,1605249066.04311,1605249066.05755,1605249320.77282,1605249328.37568,1605249330.47648,1605249338.92967,0,1605249340.64698,0,1605249664.0366
4,3,15,7,4,c4_HowHand,1,both hands?,124,H_581.jpg,0,7.59326601028442,0,0,0.3,0,1.71731472015381,0,0,0,0,0,0,1605249066.04311,1605249066.05755,1605249320.77282,1605249328.37568,1605249330.47648,1605249340.96377,0,1605249342.68108,0,1605249664.0366
4,3,15,8,4,c4_HowHand,1,both hands?,127,H_349.jpg,0,7.59326601028442,0,0,0.3,0,1.71731448173523,0,0,0,0,0,0,1605249066.04311,1605249066.05755,1605249320.77282,1605249328.37568,1605249330.47648,1605249342.99787,0,1605249344.71519,0,1605249664.0366
4,3,16,1,2,c2_WhyHand,1,self-protection?,89,H_443.jpg,0,2.10715365409851,0,0,2.10079145431519,0,0.816973924636841,0.79741096496582,1,0,0,0,0,1605249066.04311,1605249066.05755,1605249345.04865,1605249347.16611,1605249349.2669,1605249349.41696,1605249350.23635,1605249350.23394,0,1605249664.0366
4,3,16,2,2,c2_WhyHand,2,self-protection?,90,H_006.jpg,0,2.10715365409851,0,0,0.3,0,0.800303220748901,0.785247087478638,2,0,0,0,0,1605249066.04311,1605249066.05755,1605249345.04865,1605249347.16611,1605249349.2669,1605249350.55072,1605249351.353,1605249351.35103,0,1605249664.0366
4,3,16,3,2,c2_WhyHand,1,self-protection?,91,H_581.jpg,0,2.10715365409851,0,0,0.3,0,0.583553552627563,0.563505172729492,1,0,0,0,0,1605249066.04311,1605249066.05755,1605249345.04865,1605249347.16611,1605249349.2669,1605249351.66781,1605249352.25369,1605249352.25136,0,1605249664.0366
4,3,16,4,2,c2_WhyHand,2,self-protection?,92,H_532.jpg,0,2.10715365409851,0,0,0.3,0,0.483515024185181,0.468674898147583,1,0,0,0,0,1605249066.04311,1605249066.05755,1605249345.04865,1605249347.16611,1605249349.2669,1605249352.56815,1605249353.05381,1605249353.05167,0,1605249664.0366
4,3,16,5,2,c2_WhyHand,1,self-protection?,96,H_027.jpg,0,2.10715365409851,0,0,0.3,0,0.400151014328003,0.386159896850586,2,0,0,0,0,1605249066.04311,1605249066.05755,1605249345.04865,1605249347.16611,1605249349.2669,1605249353.36845,1605249353.77064,1605249353.7686,0,1605249664.0366
4,3,16,6,2,c2_WhyHand,1,self-protection?,93,H_038.jpg,0,2.10715365409851,0,0,0.3,0,0.366805791854858,0.35027289390564,1,0,0,0,0,1605249066.04311,1605249066.05755,1605249345.04865,1605249347.16611,1605249349.2669,1605249354.08539,1605249354.4541,1605249354.4522,0,1605249664.0366
4,3,16,7,2,c2_WhyHand,2,self-protection?,95,H_332.jpg,0,2.10715365409851,0,0,0.3,0,0.583554267883301,0.567451000213623,1,0,0,0,0,1605249066.04311,1605249066.05755,1605249345.04865,1605249347.16611,1605249349.2669,1605249354.76898,1605249355.35497,1605249355.35254,0,1605249664.0366
4,3,16,8,2,c2_WhyHand,1,self-protection?,94,H_189.jpg,0,2.10715365409851,0,0,0.3,0,0.750283241271973,0.733836889266968,1,0,0,0,0,1605249066.04311,1605249066.05755,1605249345.04865,1605249347.16611,1605249349.2669,1605249355.66932,1605249356.4208,1605249356.4196,0,1605249664.0366
4,3,17,1,3,c3_HowFace,1,smiling?,118,F_759.jpg,0,12.1328685283661,0,0,2.10079264640808,0,0.566879034042358,0.552263975143433,1,0,0,0,0,1605249066.04311,1605249066.05755,1605249356.50297,1605249368.64088,1605249370.74168,1605249370.89173,1605249371.46861,1605249371.45861,0,1605249664.0366
4,3,17,2,3,c3_HowFace,2,smiling?,114,F_412.jpg,0,12.1328685283661,0,0,0.3,0,0.800301551818848,0.793211936950684,1,0,0,0,0,1605249066.04311,1605249066.05755,1605249356.50297,1605249368.64088,1605249370.74168,1605249371.7754,1605249372.58539,1605249372.5757,0,1605249664.0366
4,3,17,3,3,c3_HowFace,1,smiling?,117,F_593.jpg,0,12.1328685283661,0,0,0.3,0,0.650245428085327,0.631778001785278,1,0,0,0,0,1605249066.04311,1605249066.05755,1605249356.50297,1605249368.64088,1605249370.74168,1605249372.89249,1605249373.54499,1605249373.54273,0,1605249664.0366
4,3,17,4,3,c3_HowFace,2,smiling?,113,F_712.jpg,0,12.1328685283661,0,0,0.3,0,0.883666038513184,0.862159013748169,2,0,0,0,0,1605249066.04311,1605249066.05755,1605249356.50297,1605249368.64088,1605249370.74168,1605249373.85952,1605249374.74506,1605249374.74319,0,1605249664.0366
4,3,17,5,3,c3_HowFace,1,smiling?,115,F_695.jpg,0,12.1328685283661,0,0,0.3,0,0.550206422805786,0.532369136810303,1,0,0,0,0,1605249066.04311,1605249066.05755,1605249356.50297,1605249368.64088,1605249370.74168,1605249375.05997,1605249375.61252,1605249375.61018,0,1605249664.0366
4,3,17,6,3,c3_HowFace,1,smiling?,119,F_139.jpg,0,12.1328685283661,0,0,0.3,0,0.933685541152954,0.912293910980225,1,0,0,0,0,1605249066.04311,1605249066.05755,1605249356.50297,1605249368.64088,1605249370.74168,1605249375.92697,1605249376.8625,1605249376.86065,0,1605249664.0366
4,3,17,7,3,c3_HowFace,1,smiling?,116,F_083.jpg,0,12.1328685283661,0,0,0.3,0,1.26714515686035,1.24687099456787,1,0,0,0,0,1605249066.04311,1605249066.05755,1605249356.50297,1605249368.64088,1605249370.74168,1605249377.17744,1605249378.447,1605249378.44459,0,1605249664.0366
4,3,17,8,3,c3_HowFace,2,smiling?,120,F_758.jpg,0,12.1328685283661,0,0,0.3,0,1.71731472015381,0,0,0,0,0,0,1605249066.04311,1605249066.05755,1605249356.50297,1605249368.64088,1605249370.74168,1605249378.76137,0,1605249380.47869,0,1605249664.0366
4,3,18,1,1,c1_WhyFace,1,admiring?,1,F_593.jpg,0,5.59721493721008,0,0,2.10079312324524,0,1.71731567382812,0,0,0,0,0,0,1605249066.04311,1605249066.05755,1605249380.82882,1605249386.43093,1605249388.53172,1605249388.68178,0,1605249390.3991,0,1605249664.0366
4,3,18,2,1,c1_WhyFace,2,admiring?,2,F_129.jpg,0,5.59721493721008,0,0,0.3,0,0.816975116729736,0.800723075866699,1,0,0,0,0,1605249066.04311,1605249066.05755,1605249380.82882,1605249386.43093,1605249388.53172,1605249390.71588,1605249391.53542,1605249391.53286,0,1605249664.0366
4,3,18,3,1,c1_WhyFace,1,admiring?,5,F_759.jpg,0,5.59721493721008,0,0,0.3,0,0.616898775100708,0.604300975799561,1,0,0,0,0,1605249066.04311,1605249066.05755,1605249380.82882,1605249386.43093,1605249388.53172,1605249391.84965,1605249392.46836,1605249392.46654,0,1605249664.0366
4,3,18,4,1,c1_WhyFace,2,admiring?,6,F_692.jpg,0,5.59721493721008,0,0,0.3,0,1.10041451454163,1.08698105812073,1,0,0,0,0,1605249066.04311,1605249066.05755,1605249380.82882,1605249386.43093,1605249388.53172,1605249392.78333,1605249393.88567,1605249393.88374,0,1605249664.0366
4,3,18,5,1,c1_WhyFace,1,admiring?,4,F_779.jpg,0,5.59721493721008,0,0,0.3,0,1.0670690536499,1.04632997512817,1,0,0,0,0,1605249066.04311,1605249066.05755,1605249380.82882,1605249386.43093,1605249388.53172,1605249394.20053,1605249395.2703,1605249395.2676,0,1605249664.0366
4,3,18,6,1,c1_WhyFace,1,admiring?,8,F_590.jpg,0,5.59721493721008,0,0,0.3,0,1.71731400489807,0,0,0,0,0,0,1605249066.04311,1605249066.05755,1605249380.82882,1605249386.43093,1605249388.53172,1605249395.58439,0,1605249397.3017,0,1605249664.0366
4,3,18,7,1,c1_WhyFace,1,admiring?,7,F_648.jpg,0,5.59721493721008,0,0,0.3,0,1.71731448173523,0,0,0,0,0,0,1605249066.04311,1605249066.05755,1605249380.82882,1605249386.43093,1605249388.53172,1605249397.61849,0,1605249399.3358,0,1605249664.0366
4,3,18,8,1,c1_WhyFace,2,admiring?,3,F_110.jpg,0,5.59721493721008,0,0,0.3,0,1.71731352806091,0,0,0,0,0,0,1605249066.04311,1605249066.05755,1605249380.82882,1605249386.43093,1605249388.53172,1605249399.65259,0,1605249401.3699,0,1605249664.0366
4,3,19,1,2,c2_WhyHand,1,competing?,9,H_261.jpg,0,2.61245965957642,0,0,2.10079169273376,0,1.73398780822754,0,0,0,0,0,0,1605249066.04311,1605249066.05755,1605249401.70336,1605249404.32102,1605249406.42181,1605249406.57187,0,1605249408.30586,0,1605249664.0366
4,3,19,2,2,c2_WhyHand,1,competing?,15,H_170.jpg,0,2.61245965957642,0,0,0.3,0,1.71731472015381,0,0,0,0,0,0,1605249066.04311,1605249066.05755,1605249401.70336,1605249404.32102,1605249406.42181,1605249408.62264,0,1605249410.33996,0,1605249664.0366
4,3,19,3,2,c2_WhyHand,2,competing?,12,H_483.jpg,0,2.61245965957642,0,0,0.3,0,0.816975116729736,0.796802997589111,1,0,0,0,0,1605249066.04311,1605249066.05755,1605249401.70336,1605249404.32102,1605249406.42181,1605249410.65674,1605249411.47566,1605249411.47372,0,1605249664.0366
4,3,19,4,2,c2_WhyHand,1,competing?,14,H_132.jpg,0,2.61245965957642,0,0,0.3,0,0.566879987716675,0.560497999191284,1,0,0,0,0,1605249066.04311,1605249066.05755,1605249401.70336,1605249404.32102,1605249406.42181,1605249411.7905,1605249412.3683,1605249412.35738,0,1605249664.0366
4,3,19,5,2,c2_WhyHand,1,competing?,16,H_136.jpg,0,2.61245965957642,0,0,0.3,0,0.616900205612183,0.60886812210083,1,0,0,0,0,1605249066.04311,1605249066.05755,1605249401.70336,1605249404.32102,1605249406.42181,1605249412.67417,1605249413.3021,1605249413.29107,0,1605249664.0366
4,3,19,6,2,c2_WhyHand,1,competing?,13,H_003.jpg,0,2.61245965957642,0,0,0.3,0,0.583553552627563,0.576903104782104,1,0,0,0,0,1605249066.04311,1605249066.05755,1605249401.70336,1605249404.32102,1605249406.42181,1605249413.60786,1605249414.20191,1605249414.19141,0,1605249664.0366
4,3,19,7,2,c2_WhyHand,2,competing?,10,H_126.jpg,0,2.61245965957642,0,0,0.3,0,0.750282764434814,0.728786945343018,2,0,0,0,0,1605249066.04311,1605249066.05755,1605249401.70336,1605249404.32102,1605249406.42181,1605249414.5082,1605249415.2608,1605249415.25848,0,1605249664.0366
4,3,19,8,2,c2_WhyHand,2,competing?,11,H_502.jpg,0,2.61245965957642,0,0,0.3,0,0.917013645172119,0.896596908569336,1,0,0,0,0,1605249066.04311,1605249066.05755,1605249401.70336,1605249404.32102,1605249406.42181,1605249415.57527,1605249416.49463,1605249416.49228,0,1605249664.0366
4,3,20,1,4,c4_HowHand,1,reaching?,111,H_003.jpg,0,9.23710179328918,0,0,2.10079312324524,0,0.850319623947144,0.827686071395874,1,0,0,0,0,1605249066.04311,1605249066.05755,1605249416.55897,1605249425.81246,1605249427.91326,1605249428.06331,1605249428.91612,1605249428.91363,0,1605249664.0366
4,3,20,2,4,c4_HowHand,1,reaching?,110,H_364.jpg,0,9.23710179328918,0,0,0.3,0,0.583553552627563,0.563899040222168,1,0,0,0,0,1605249066.04311,1605249066.05755,1605249416.55897,1605249425.81246,1605249427.91326,1605249429.23042,1605249429.81857,1605249429.81397,0,1605249664.0366
4,3,20,3,4,c4_HowHand,2,reaching?,108,H_532.jpg,0,9.23710179328918,0,0,0.3,0,0.800301551818848,0.782576084136963,2,0,0,0,0,1605249066.04311,1605249066.05755,1605249416.55897,1605249425.81246,1605249427.91326,1605249430.13076,1605249430.93573,1605249430.93106,0,1605249664.0366
4,3,20,4,4,c4_HowHand,1,reaching?,106,H_006.jpg,0,9.23710179328918,0,0,0.3,0,0.633572340011597,0.622230052947998,1,0,0,0,0,1605249066.04311,1605249066.05755,1605249416.55897,1605249425.81246,1605249427.91326,1605249431.24785,1605249431.88583,1605249431.88142,0,1605249664.0366
4,3,20,5,4,c4_HowHand,2,reaching?,105,H_438.jpg,0,9.23710179328918,0,0,0.3,0,0.70026421546936,0.691461086273193,2,0,0,0,0,1605249066.04311,1605249066.05755,1605249416.55897,1605249425.81246,1605249427.91326,1605249432.19821,1605249432.9017,1605249432.89847,0,1605249664.0366
4,3,20,6,4,c4_HowHand,1,reaching?,107,H_007.jpg,0,9.23710179328918,0,0,0.3,0,0.600227117538452,0.580940008163452,1,0,0,0,0,1605249066.04311,1605249066.05755,1605249416.55897,1605249425.81246,1605249427.91326,1605249433.21526,1605249433.81884,1605249433.81548,0,1605249664.0366
4,3,20,7,4,c4_HowHand,1,reaching?,109,H_474.jpg,0,9.23710179328918,0,0,0.3,0,0.733609676361084,0.715994119644165,1,0,0,0,0,1605249066.04311,1605249066.05755,1605249416.55897,1605249425.81246,1605249427.91326,1605249434.13227,1605249434.86854,1605249434.86588,0,1605249664.0366
4,3,20,8,4,c4_HowHand,2,reaching?,112,H_132.jpg,0,9.23710179328918,0,0,0.3,0,1.71731424331665,0,0,0,0,0,0,1605249066.04311,1605249066.05755,1605249416.55897,1605249425.81246,1605249427.91326,1605249435.18267,0,1605249436.89998,0,1605249664.0366
4,3,21,1,3,c3_HowFace,1,open mouth?,73,F_403.jpg,0,6.40238571166992,0,0,2.10079216957092,0,1.7173171043396,0,0,0,0,0,0,1605249066.04311,1605249066.05755,1605249437.23344,1605249443.65253,1605249445.75332,1605249445.90338,0,1605249447.6207,0,1605249664.0366
4,3,21,2,3,c3_HowFace,2,open mouth?,79,F_648.jpg,0,6.40238571166992,0,0,0.3,0,0.883666753768921,0.868583917617798,2,0,0,0,0,1605249066.04311,1605249066.05755,1605249437.23344,1605249443.65253,1605249445.75332,1605249447.93748,1605249448.82336,1605249448.82115,0,1605249664.0366
4,3,21,3,3,c3_HowFace,1,open mouth?,74,F_776.jpg,0,6.40238571166992,0,0,0.3,0,0.566879749298096,0.555747985839844,1,0,0,0,0,1605249066.04311,1605249066.05755,1605249437.23344,1605249443.65253,1605249445.75332,1605249449.13794,1605249449.70649,1605249449.70482,0,1605249664.0366
4,3,21,4,3,c3_HowFace,2,open mouth?,77,F_584.jpg,0,6.40238571166992,0,0,0.3,0,0.700263977050781,0.689131021499634,2,0,0,0,0,1605249066.04311,1605249066.05755,1605249437.23344,1605249443.65253,1605249445.75332,1605249450.0216,1605249450.72375,1605249450.72187,0,1605249664.0366
4,3,21,5,3,c3_HowFace,1,open mouth?,80,F_844.jpg,0,6.40238571166992,0,0,0.3,0,1.3171648979187,1.30020308494568,1,0,0,0,0,1605249066.04311,1605249066.05755,1605249437.23344,1605249443.65253,1605249445.75332,1605249451.03865,1605249452.35826,1605249452.35582,0,1605249664.0366
4,3,21,6,3,c3_HowFace,1,open mouth?,78,F_692.jpg,0,6.40238571166992,0,0,0.3,0,0.616899251937866,0.59749698638916,1,0,0,0,0,1605249066.04311,1605249066.05755,1605249437.23344,1605249443.65253,1605249445.75332,1605249452.6726,1605249453.29156,1605249453.2895,0,1605249664.0366
4,3,21,7,3,c3_HowFace,1,open mouth?,75,F_086.jpg,0,6.40238571166992,0,0,0.3,0,0.53353476524353,0.522168874740601,1,0,0,0,0,1605249066.04311,1605249066.05755,1605249437.23344,1605249443.65253,1605249445.75332,1605249453.60629,1605249454.15201,1605249454.13982,0,1605249664.0366
4,3,21,8,3,c3_HowFace,2,open mouth?,76,F_544.jpg,0,6.40238571166992,0,0,0.3,0,0.650246620178223,0.629344940185547,2,0,0,0,0,1605249066.04311,1605249066.05755,1605249437.23344,1605249443.65253,1605249445.75332,1605249454.45661,1605249455.10908,1605249455.10685,0,1605249664.0366
4,3,22,1,1,c1_WhyFace,1,argument?,42,F_403.jpg,0,7.12156558036804,0,0,2.10079169273376,0,1.71731567382812,0,0,0,0,0,0,1605249066.04311,1605249066.05755,1605249455.19022,1605249462.32625,1605249464.42704,1605249464.5771,0,1605249466.29441,0,1605249664.0366
4,3,22,2,1,c1_WhyFace,2,argument?,46,F_844.jpg,0,7.12156558036804,0,0,0.3,0,1.71731567382812,0,0,0,0,0,0,1605249066.04311,1605249066.05755,1605249455.19022,1605249462.32625,1605249464.42704,1605249466.6112,0,1605249468.32851,0,1605249664.0366
4,3,22,3,1,c1_WhyFace,1,argument?,41,F_712.jpg,0,7.12156558036804,0,0,0.3,0,1.71731448173523,0,0,0,0,0,0,1605249066.04311,1605249066.05755,1605249455.19022,1605249462.32625,1605249464.42704,1605249468.6453,0,1605249470.36261,0,1605249664.0366
4,3,22,4,1,c1_WhyFace,1,argument?,48,F_758.jpg,0,7.12156558036804,0,0,0.3,0,1.71731472015381,0,0,0,0,0,0,1605249066.04311,1605249066.05755,1605249455.19022,1605249462.32625,1605249464.42704,1605249470.6794,0,1605249472.39672,0,1605249664.0366
4,3,22,5,1,c1_WhyFace,2,argument?,45,F_433.jpg,0,7.12156558036804,0,0,0.3,0,1.71731543540955,0,0,0,0,0,0,1605249066.04311,1605249066.05755,1605249455.19022,1605249462.32625,1605249464.42704,1605249472.7135,0,1605249474.43082,0,1605249664.0366
4,3,22,6,1,c1_WhyFace,1,argument?,43,F_716.jpg,0,7.12156558036804,0,0,0.3,0,1.71731472015381,0,0,0,0,0,0,1605249066.04311,1605249066.05755,1605249455.19022,1605249462.32625,1605249464.42704,1605249474.7476,0,1605249476.46492,0,1605249664.0366
4,3,22,7,1,c1_WhyFace,2,argument?,44,F_139.jpg,0,7.12156558036804,0,0,0.3,0,1.71731519699097,0,0,0,0,0,0,1605249066.04311,1605249066.05755,1605249455.19022,1605249462.32625,1605249464.42704,1605249476.7817,0,1605249478.49902,0,1605249664.0366
4,3,22,8,1,c1_WhyFace,1,argument?,47,F_743.jpg,0,7.12156558036804,0,0,0.3,0,1.71731472015381,0,0,0,0,0,0,1605249066.04311,1605249066.05755,1605249455.19022,1605249462.32625,1605249464.42704,1605249478.8158,0,1605249480.53312,0,1605249664.0366
4,3,23,1,2,c2_WhyHand,1,helping?,39,H_024.jpg,0,0.00751042366027832,0,0,1.76733469963074,0,1.7339882850647,0,0,0,0,0,0,1605249066.04311,1605249066.05755,1605249480.86658,1605249480.88325,1605249482.65059,1605249482.78397,0,1605249484.51796,0,1605249664.0366
4,3,23,2,2,c2_WhyHand,1,helping?,36,H_349.jpg,0,0.00751042366027832,0,0,0.3,0,1.71731424331665,0,0,0,0,0,0,1605249066.04311,1605249066.05755,1605249480.86658,1605249480.88325,1605249482.65059,1605249484.83474,0,1605249486.55206,0,1605249664.0366
4,3,23,3,2,c2_WhyHand,1,helping?,38,H_077.jpg,0,0.00751042366027832,0,0,0.3,0,1.71731495857239,0,0,0,0,0,0,1605249066.04311,1605249066.05755,1605249480.86658,1605249480.88325,1605249482.65059,1605249486.86884,0,1605249488.58616,0,1605249664.0366
4,3,23,4,2,c2_WhyHand,1,helping?,37,H_474.jpg,0,0.00751042366027832,0,0,0.3,0,1.71731519699097,0,0,0,0,0,0,1605249066.04311,1605249066.05755,1605249480.86658,1605249480.88325,1605249482.65059,1605249488.90294,0,1605249490.62026,0,1605249664.0366
4,3,23,5,2,c2_WhyHand,2,helping?,33,H_091.jpg,0,0.00751042366027832,0,0,0.3,0,1.71731495857239,0,0,0,0,0,0,1605249066.04311,1605249066.05755,1605249480.86658,1605249480.88325,1605249482.65059,1605249490.93705,0,1605249492.65436,0,1605249664.0366
4,3,23,6,2,c2_WhyHand,2,helping?,35,H_159.jpg,0,0.00751042366027832,0,0,0.3,0,1.71731519699097,0,0,0,0,0,0,1605249066.04311,1605249066.05755,1605249480.86658,1605249480.88325,1605249482.65059,1605249492.97115,0,1605249494.68846,0,1605249664.0366
4,3,23,7,2,c2_WhyHand,1,helping?,34,H_111.jpg,0,0.00751042366027832,0,0,0.3,0,1.71731543540955,0,0,0,0,0,0,1605249066.04311,1605249066.05755,1605249480.86658,1605249480.88325,1605249482.65059,1605249495.00525,0,1605249496.72256,0,1605249664.0366
4,3,23,8,2,c2_WhyHand,2,helping?,40,H_012.jpg,0,0.00751042366027832,0,0,0.3,0,1.71731352806091,0,0,0,0,0,0,1605249066.04311,1605249066.05755,1605249480.86658,1605249480.88325,1605249482.65059,1605249497.03935,0,1605249498.75666,0,1605249664.0366
4,3,24,1,4,c4_HowHand,1,both hands?,122,H_111.jpg,0,0.014301061630249,0,0,1.60060334205627,0,1.71731495857239,0,0,0,0,0,0,1605249066.04311,1605249066.05755,1605249499.09012,1605249499.1068,1605249500.7074,1605249500.85746,0,1605249502.57477,0,1605249664.0366
4,3,24,2,4,c4_HowHand,1,both hands?,128,H_027.jpg,0,0.014301061630249,0,0,0.3,0,1.71731495857239,0,0,0,0,0,0,1605249066.04311,1605249066.05755,1605249499.09012,1605249499.1068,1605249500.7074,1605249502.89156,0,1605249504.60887,0,1605249664.0366
4,3,24,3,4,c4_HowHand,2,both hands?,121,H_091.jpg,0,0.014301061630249,0,0,0.3,0,1.7173159122467,0,0,0,0,0,0,1605249066.04311,1605249066.05755,1605249499.09012,1605249499.1068,1605249500.7074,1605249504.92566,0,1605249506.64298,0,1605249664.0366
4,3,24,4,4,c4_HowHand,1,both hands?,123,H_167.jpg,0,0.014301061630249,0,0,0.3,0,1.71731472015381,0,0,0,0,0,0,1605249066.04311,1605249066.05755,1605249499.09012,1605249499.1068,1605249500.7074,1605249506.95976,0,1605249508.67708,0,1605249664.0366
4,3,24,5,4,c4_HowHand,1,both hands?,124,H_581.jpg,0,0.014301061630249,0,0,0.3,0,1.71731543540955,0,0,0,0,0,0,1605249066.04311,1605249066.05755,1605249499.09012,1605249499.1068,1605249500.7074,1605249508.99386,0,1605249510.71118,0,1605249664.0366
4,3,24,6,4,c4_HowHand,2,both hands?,126,H_159.jpg,0,0.014301061630249,0,0,0.3,0,1.71731495857239,0,0,0,0,0,0,1605249066.04311,1605249066.05755,1605249499.09012,1605249499.1068,1605249500.7074,1605249511.02796,0,1605249512.74528,0,1605249664.0366
4,3,24,7,4,c4_HowHand,1,both hands?,127,H_349.jpg,0,0.014301061630249,0,0,0.3,0,1.71731424331665,0,0,0,0,0,0,1605249066.04311,1605249066.05755,1605249499.09012,1605249499.1068,1605249500.7074,1605249513.06206,0,1605249514.77938,0,1605249664.0366
4,3,24,8,4,c4_HowHand,2,both hands?,125,H_627.jpg,0,0.014301061630249,0,0,0.3,0,1.71731448173523,0,0,0,0,0,0,1605249066.04311,1605249066.05755,1605249499.09012,1605249499.1068,1605249500.7074,1605249515.09617,0,1605249516.81348,0,1605249664.0366
4,3,25,1,2,c2_WhyHand,1,healthy?,18,H_438.jpg,0,0.00897812843322754,0,0,1.05039668083191,0,1.7173125743866,0,0,0,0,0,0,1605249066.04311,1605249066.05755,1605249517.16361,1605249517.18028,1605249518.23068,1605249518.38074,0,1605249520.09805,0,1605249664.0366
4,3,25,2,2,c2_WhyHand,1,healthy?,23,H_364.jpg,0,0.00897812843322754,0,0,0.3,0,1.71731472015381,0,0,0,0,0,0,1605249066.04311,1605249066.05755,1605249517.16361,1605249517.18028,1605249518.23068,1605249520.41484,0,1605249522.13215,0,1605249664.0366
4,3,25,3,2,c2_WhyHand,1,healthy?,17,H_362.jpg,0,0.00897812843322754,0,0,0.3,0,0.450170516967773,0.441214084625244,1,0,0,0,0,1605249066.04311,1605249066.05755,1605249517.16361,1605249517.18028,1605249518.23068,1605249522.44894,1605249522.90272,1605249522.89911,0,1605249664.0366
4,3,25,4,2,c2_WhyHand,2,healthy?,24,H_019.jpg,0,0.00897812843322754,0,0,0.3,0,0.416823863983154,0.404531955718994,2,0,0,0,0,1605249066.04311,1605249066.05755,1605249517.16361,1605249517.18028,1605249518.23068,1605249523.2159,1605249523.63573,1605249523.63272,0,1605249664.0366
4,3,25,5,2,c2_WhyHand,1,healthy?,19,H_167.jpg,0,0.00897812843322754,0,0,0.3,0,0.783629655838013,0.771176815032959,1,0,0,0,0,1605249066.04311,1605249066.05755,1605249517.16361,1605249517.18028,1605249518.23068,1605249523.94951,1605249524.73579,1605249524.73314,0,1605249664.0366
4,3,25,6,2,c2_WhyHand,2,healthy?,20,H_007.jpg,0,0.00897812843322754,0,0,0.3,0,0.483516216278076,0.472718954086304,1,0,0,0,0,1605249066.04311,1605249066.05755,1605249517.16361,1605249517.18028,1605249518.23068,1605249525.04992,1605249525.5359,1605249525.53344,0,1605249664.0366
4,3,25,7,2,c2_WhyHand,1,healthy?,21,H_627.jpg,0,0.00897812843322754,0,0,0.3,0,0.466843128204346,0.448611974716187,1,0,0,0,0,1605249066.04311,1605249066.05755,1605249517.16361,1605249517.18028,1605249518.23068,1605249525.85022,1605249526.31957,1605249526.31707,0,1605249664.0366
4,3,25,8,2,c2_WhyHand,2,healthy?,22,H_130.jpg,0,0.00897812843322754,0,0,0.3,0,0.967031955718994,0.95921802520752,2,0,0,0,0,1605249066.04311,1605249066.05755,1605249517.16361,1605249517.18028,1605249518.23068,1605249526.63385,1605249527.60286,1605249527.60088,0,1605249664.0366
4,3,26,1,4,c4_HowHand,1,pressing button?,82,H_126.jpg,0,7.48855209350586,0,0,2.10079193115234,0,1.71731543540955,0,0,0,0,0,0,1605249066.04311,1605249066.05755,1605249527.68425,1605249535.18708,1605249537.28787,1605249537.43793,0,1605249539.15525,0,1605249664.0366
4,3,26,2,4,c4_HowHand,2,pressing button?,85,H_130.jpg,0,7.48855209350586,0,0,0.3,0,1.71731495857239,0,0,0,0,0,0,1605249066.04311,1605249066.05755,1605249527.68425,1605249535.18708,1605249537.28787,1605249539.47203,0,1605249541.18935,0,1605249664.0366
4,3,26,3,4,c4_HowHand,1,pressing button?,84,H_483.jpg,0,7.48855209350586,0,0,0.3,0,1.71731424331665,0,0,0,0,0,0,1605249066.04311,1605249066.05755,1605249527.68425,1605249535.18708,1605249537.28787,1605249541.50613,0,1605249543.22345,0,1605249664.0366
4,3,26,4,4,c4_HowHand,2,pressing button?,87,H_024.jpg,0,7.48855209350586,0,0,0.3,0,0.533535003662109,0.521819114685059,1,0,0,0,0,1605249066.04311,1605249066.05755,1605249527.68425,1605249535.18708,1605249537.28787,1605249543.54023,1605249544.08596,1605249544.07377,0,1605249664.0366
4,3,26,5,4,c4_HowHand,1,pressing button?,86,H_332.jpg,0,7.48855209350586,0,0,0.3,0,0.516861200332642,0.509793996810913,2,0,0,0,0,1605249066.04311,1605249066.05755,1605249527.68425,1605249535.18708,1605249537.28787,1605249544.39056,1605249544.91924,1605249544.90742,0,1605249664.0366
4,3,26,6,4,c4_HowHand,1,pressing button?,88,H_019.jpg,0,7.48855209350586,0,0,0.3,0,0.750283241271973,0.740317106246948,1,0,0,0,0,1605249066.04311,1605249066.05755,1605249527.68425,1605249535.18708,1605249537.28787,1605249545.2242,1605249545.98509,1605249545.97449,0,1605249664.0366
4,3,26,7,4,c4_HowHand,2,pressing button?,81,H_261.jpg,0,7.48855209350586,0,0,0.3,0,0.550207853317261,0.5298171043396,1,0,0,0,0,1605249066.04311,1605249066.05755,1605249527.68425,1605249535.18708,1605249537.28787,1605249546.29127,1605249546.84283,1605249546.84148,0,1605249664.0366
4,3,26,8,4,c4_HowHand,1,pressing button?,83,H_502.jpg,0,7.48855209350586,0,0,0.3,0,0.566881418228149,0.551512002944946,1,0,0,0,0,1605249066.04311,1605249066.05755,1605249527.68425,1605249535.18708,1605249537.28787,1605249547.15827,1605249547.72703,1605249547.72515,0,1605249664.0366
4,3,27,1,3,c3_HowFace,1,looking at camera?,60,F_618.jpg,0,4.91059923171997,0,0,2.1007924079895,0,0.900338649749756,0.886031866073608,1,0,0,0,0,1605249066.04311,1605249066.05755,1605249547.79184,1605249552.71036,1605249554.81116,1605249554.96121,1605249555.86954,1605249555.86155,0,1605249664.0366
4,3,27,2,3,c3_HowFace,2,looking at camera?,58,F_754.jpg,0,4.91059923171997,0,0,0.3,0,0.500189542770386,0.491675853729248,1,0,0,0,0,1605249066.04311,1605249066.05755,1605249547.79184,1605249552.71036,1605249554.81116,1605249556.17834,1605249556.68613,1605249556.67853,0,1605249664.0366
4,3,27,3,3,c3_HowFace,1,looking at camera?,59,F_129.jpg,0,4.91059923171997,0,0,0.3,0,1.01705121994019,1.00508189201355,1,0,0,0,0,1605249066.04311,1605249066.05755,1605249547.79184,1605249552.71036,1605249554.81116,1605249556.99531,1605249558.01913,1605249558.01237,0,1605249664.0366
4,3,27,4,3,c3_HowFace,1,looking at camera?,62,F_598.jpg,0,4.91059923171997,0,0,0.3,0,1.71731472015381,1.79207081794739,1,0,0,0,0,1605249066.04311,1605249066.05755,1605249547.79184,1605249552.71036,1605249554.81116,1605249558.32915,1605249560.1463,1605249560.04647,0,1605249664.0366
4,3,27,5,3,c3_HowFace,1,looking at camera?,64,F_128.jpg,0,4.91059923171997,0,0,0.3,0,1.21712636947632,1.19878196716309,2,0,0,0,0,1605249066.04311,1605249066.05755,1605249547.79184,1605249552.71036,1605249554.81116,1605249560.36325,1605249561.58621,1605249561.58038,0,1605249664.0366
4,3,27,6,3,c3_HowFace,2,looking at camera?,57,F_582.jpg,0,4.91059923171997,0,0,0.3,0,0.600226640701294,0.585593938827515,1,0,0,0,0,1605249066.04311,1605249066.05755,1605249547.79184,1605249552.71036,1605249554.81116,1605249561.89716,1605249562.50251,1605249562.49739,0,1605249664.0366
4,3,27,7,3,c3_HowFace,1,looking at camera?,61,F_774.jpg,0,4.91059923171997,0,0,0.3,0,0.63357138633728,0.622841835021973,1,0,0,0,0,1605249066.04311,1605249066.05755,1605249547.79184,1605249552.71036,1605249554.81116,1605249562.81418,1605249563.45243,1605249563.44775,0,1605249664.0366
4,3,27,8,3,c3_HowFace,2,looking at camera?,63,F_743.jpg,0,4.91059923171997,0,0,0.3,0,0.766955614089966,0.752661228179932,1,0,0,0,0,1605249066.04311,1605249066.05755,1605249547.79184,1605249552.71036,1605249554.81116,1605249563.76454,1605249564.53581,1605249564.53149,0,1605249664.0366
4,3,28,1,1,c1_WhyFace,1,self-doubt?,25,F_798.jpg,0,7.05217814445496,0,0,2.10079312324524,0,1.71731424331665,0,0,0,0,0,0,1605249066.04311,1605249066.05755,1605249564.61486,1605249571.68419,1605249573.78499,1605249573.93504,0,1605249575.65236,0,1605249664.0366
4,3,28,2,1,c1_WhyFace,2,self-doubt?,27,F_086.jpg,0,7.05217814445496,0,0,0.3,0,0.616900205612183,0.595075130462646,1,0,0,0,0,1605249066.04311,1605249066.05755,1605249564.61486,1605249571.68419,1605249573.78499,1605249575.96914,1605249576.58835,1605249576.58604,0,1605249664.0366
4,3,28,3,1,c1_WhyFace,1,self-doubt?,29,F_544.jpg,0,7.05217814445496,0,0,0.3,0,0.600225687026978,0.580097913742065,1,0,0,0,0,1605249066.04311,1605249066.05755,1605249564.61486,1605249571.68419,1605249573.78499,1605249576.90283,1605249577.50489,1605249577.50305,0,1605249664.0366
4,3,28,4,1,c1_WhyFace,1,self-doubt?,28,F_754.jpg,0,7.05217814445496,0,0,0.3,0,0.516858816146851,0.503053188323975,2,0,0,0,0,1605249066.04311,1605249066.05755,1605249564.61486,1605249571.68419,1605249573.78499,1605249577.81984,1605249578.33887,1605249578.3367,0,1605249664.0366
4,3,28,5,1,c1_WhyFace,1,self-doubt?,26,F_111.jpg,0,7.05217814445496,0,0,0.3,0,0.61689829826355,0.598026990890503,1,0,0,0,0,1605249066.04311,1605249066.05755,1605249564.61486,1605249571.68419,1605249573.78499,1605249578.65349,1605249579.27269,1605249579.27039,0,1605249664.0366
4,3,28,6,1,c1_WhyFace,1,self-doubt?,30,F_584.jpg,0,7.05217814445496,0,0,0.3,0,0.533534049987793,0.525535106658936,1,0,0,0,0,1605249066.04311,1605249066.05755,1605249564.61486,1605249571.68419,1605249573.78499,1605249579.58718,1605249580.13637,1605249580.12071,0,1605249664.0366
4,3,28,7,1,c1_WhyFace,2,self-doubt?,32,F_128.jpg,0,7.05217814445496,0,0,0.3,0,0.967031002044678,0.954311847686768,1,0,0,0,0,1605249066.04311,1605249066.05755,1605249564.61486,1605249571.68419,1605249573.78499,1605249580.4375,1605249581.40692,1605249581.40453,0,1605249664.0366
4,3,28,8,1,c1_WhyFace,2,self-doubt?,31,F_774.jpg,0,7.05217814445496,0,0,0.3,0,0.950357437133789,0.936142921447754,1,0,0,0,0,1605249066.04311,1605249066.05755,1605249564.61486,1605249571.68419,1605249573.78499,1605249581.72131,1605249582.67368,1605249582.67167,0,1605249664.0366
4,3,29,1,2,c2_WhyHand,1,self-protection?,91,H_581.jpg,0,6.42876482009888,0,0,2.10079288482666,0,1.71731519699097,0,0,0,0,0,0,1605249066.04311,1605249066.05755,1605249582.75504,1605249589.1908,1605249591.29159,1605249591.44165,0,1605249593.15896,0,1605249664.0366
4,3,29,2,2,c2_WhyHand,1,self-protection?,89,H_443.jpg,0,6.42876482009888,0,0,0.3,0,0.166729211807251,0.152099132537842,1,0,0,0,0,1605249066.04311,1605249066.05755,1605249582.75504,1605249589.1908,1605249591.29159,1605249593.47575,1605249593.64378,1605249593.64248,0,1605249664.0366
4,3,29,3,2,c2_WhyHand,2,self-protection?,95,H_332.jpg,0,6.42876482009888,0,0,0.3,0,0.516860485076904,0.511754989624023,1,0,0,0,0,1605249066.04311,1605249066.05755,1605249582.75504,1605249589.1908,1605249591.29159,1605249593.95927,1605249594.48611,1605249594.47613,0,1605249664.0366
4,3,29,4,2,c2_WhyHand,1,self-protection?,96,H_027.jpg,0,6.42876482009888,0,0,0.3,0,0.516860723495483,0.503463983535767,2,0,0,0,0,1605249066.04311,1605249066.05755,1605249582.75504,1605249589.1908,1605249591.29159,1605249594.79292,1605249595.31963,1605249595.30978,0,1605249664.0366
4,3,29,5,2,c2_WhyHand,2,self-protection?,92,H_532.jpg,0,6.42876482009888,0,0,0.3,0,0.56688117980957,0.558878898620605,1,0,0,0,0,1605249066.04311,1605249066.05755,1605249582.75504,1605249589.1908,1605249591.29159,1605249595.62656,1605249596.20285,1605249596.19344,0,1605249664.0366
4,3,29,6,2,c2_WhyHand,1,self-protection?,94,H_189.jpg,0,6.42876482009888,0,0,0.3,0,0.43349552154541,0.412504911422729,1,0,0,0,0,1605249066.04311,1605249066.05755,1605249582.75504,1605249589.1908,1605249591.29159,1605249596.51023,1605249596.9465,1605249596.94372,0,1605249664.0366
4,3,29,7,2,c2_WhyHand,2,self-protection?,90,H_006.jpg,0,6.42876482009888,0,0,0.3,0,0.400150060653687,0.393944025039673,1,0,0,0,0,1605249066.04311,1605249066.05755,1605249582.75504,1605249589.1908,1605249591.29159,1605249597.26051,1605249597.66957,1605249597.66066,0,1605249664.0366
4,3,29,8,2,c2_WhyHand,1,self-protection?,93,H_038.jpg,0,6.42876482009888,0,0,0.3,0,0.583553075790405,0.566229104995728,1,0,0,0,0,1605249066.04311,1605249066.05755,1605249582.75504,1605249589.1908,1605249591.29159,1605249597.97745,1605249598.56332,1605249598.561,0,1605249664.0366
4,3,30,1,4,c4_HowHand,1,lifting?,50,H_443.jpg,0,8.76002430915833,0,0,2.10079336166382,0,1.71731352806091,0,0,0,0,0,0,1605249066.04311,1605249066.05755,1605249598.64437,1605249607.41434,1605249609.51514,1605249609.66519,0,1605249611.38251,0,1605249664.0366
4,3,30,2,4,c4_HowHand,2,lifting?,51,H_038.jpg,0,8.76002430915833,0,0,0.3,0,0.800301790237427,0.791950941085815,1,0,0,0,0,1605249066.04311,1605249066.05755,1605249598.64437,1605249607.41434,1605249609.51514,1605249611.6993,1605249612.50265,1605249612.4996,0,1605249664.0366
4,3,30,3,4,c4_HowHand,1,lifting?,56,H_136.jpg,0,8.76002430915833,0,0,0.3,0,0.983704805374146,0.967427968978882,1,0,0,0,0,1605249066.04311,1605249066.05755,1605249598.64437,1605249607.41434,1605249609.51514,1605249612.81638,1605249613.80311,1605249613.80009,0,1605249664.0366
4,3,30,4,4,c4_HowHand,2,lifting?,55,H_012.jpg,0,8.76002430915833,0,0,0.3,0,0.483515739440918,0.469665050506592,2,0,0,0,0,1605249066.04311,1605249066.05755,1605249598.64437,1605249607.41434,1605249609.51514,1605249614.11687,1605249614.603,1605249614.60039,0,1605249664.0366
4,3,30,5,4,c4_HowHand,1,lifting?,49,H_362.jpg,0,8.76002430915833,0,0,0.3,0,0.533535003662109,0.522845983505249,1,0,0,0,0,1605249066.04311,1605249066.05755,1605249598.64437,1605249607.41434,1605249609.51514,1605249614.91718,1605249615.45354,1605249615.45071,0,1605249664.0366
4,3,30,6,4,c4_HowHand,1,lifting?,52,H_189.jpg,0,8.76002430915833,0,0,0.3,0,1.71731495857239,1.70795292854309,1,0,0,0,0,1605249066.04311,1605249066.05755,1605249598.64437,1605249607.41434,1605249609.51514,1605249615.7675,1605249617.49469,1605249617.48481,0,1605249664.0366
4,3,30,7,4,c4_HowHand,1,lifting?,54,H_170.jpg,0,8.76002430915833,0,0,0.3,0,0.883666753768921,0.863010168075562,1,0,0,0,0,1605249066.04311,1605249066.05755,1605249598.64437,1605249607.41434,1605249609.51514,1605249617.8016,1605249618.68771,1605249618.68527,0,1605249664.0366
4,3,30,8,4,c4_HowHand,2,lifting?,53,H_077.jpg,0,8.76002430915833,0,0,0.3,0,0.816976547241211,0.797171115875244,1,0,0,0,0,1605249066.04311,1605249066.05755,1605249598.64437,1605249607.41434,1605249609.51514,1605249619.00205,1605249619.8209,1605249619.81903,0,1605249664.0366
4,3,31,1,3,c3_HowFace,1,looking to side?,67,F_716.jpg,0,5.37650012969971,0,0,2.10079312324524,0,1.71731519699097,0,0,0,0,0,0,1605249066.04311,1605249066.05755,1605249619.90239,1605249625.28776,1605249627.38855,1605249627.53861,0,1605249629.25592,0,1605249664.0366
4,3,31,2,3,c3_HowFace,2,looking to side?,65,F_798.jpg,0,5.37650012969971,0,0,0.3,0,0.800302743911743,0.794225215911865,1,0,0,0,0,1605249066.04311,1605249066.05755,1605249619.90239,1605249625.28776,1605249627.38855,1605249629.57271,1605249630.38607,1605249630.37301,0,1605249664.0366
4,3,31,3,3,c3_HowFace,1,looking to side?,68,F_760.jpg,0,5.37650012969971,0,0,0.3,0,0.716936588287354,0.70930004119873,1,0,0,0,0,1605249066.04311,1605249066.05755,1605249619.90239,1605249625.28776,1605249627.38855,1605249630.6898,1605249631.41948,1605249631.40673,0,1605249664.0366
4,3,31,4,3,c3_HowFace,1,looking to side?,69,F_110.jpg,0,5.37650012969971,0,0,0.3,0,1.71731543540955,1.71188206672668,1,0,0,0,0,1605249066.04311,1605249066.05755,1605249619.90239,1605249625.28776,1605249627.38855,1605249631.72352,1605249633.45463,1605249633.44084,0,1605249664.0366
4,3,31,5,3,c3_HowFace,2,looking to side?,70,F_779.jpg,0,5.37650012969971,0,0,0.3,0,0.633572101593018,0.622086048126221,1,0,0,0,0,1605249066.04311,1605249066.05755,1605249619.90239,1605249625.28776,1605249627.38855,1605249633.75762,1605249634.40343,1605249634.39119,0,1605249664.0366
4,3,31,6,3,c3_HowFace,1,looking to side?,72,F_590.jpg,0,5.37650012969971,0,0,0.3,0,1.06706929206848,1.05885219573975,1,0,0,0,0,1605249066.04311,1605249066.05755,1605249619.90239,1605249625.28776,1605249627.38855,1605249634.70798,1605249635.78644,1605249635.77505,0,1605249664.0366
4,3,31,7,3,c3_HowFace,2,looking to side?,66,F_111.jpg,0,5.37650012969971,0,0,0.3,0,1.367182970047,1.35489201545715,1,0,0,0,0,1605249066.04311,1605249066.05755,1605249619.90239,1605249625.28776,1605249627.38855,1605249636.09184,1605249637.46964,1605249637.45902,0,1605249664.0366
4,3,31,8,3,c3_HowFace,1,looking to side?,71,F_433.jpg,0,5.37650012969971,0,0,0.3,0,1.71731376647949,0,0,0,0,0,0,1605249066.04311,1605249066.05755,1605249619.90239,1605249625.28776,1605249627.38855,1605249637.77581,0,1605249639.49312,0,1605249664.0366
4,3,32,1,1,c1_WhyFace,1,proud?,101,F_083.jpg,0,7.91766333580017,0,0,2.10079264640808,0,1.71731472015381,0,0,0,0,0,0,1605249066.04311,1605249066.05755,1605249639.84325,1605249647.77958,1605249649.88037,1605249650.01376,0,1605249651.73107,0,1605249664.0366
4,3,32,2,1,c1_WhyFace,1,proud?,97,F_582.jpg,0,7.91766333580017,0,0,0.3,0,1.71731424331665,0,0,0,0,0,0,1605249066.04311,1605249066.05755,1605249639.84325,1605249647.77958,1605249649.88037,1605249652.04786,0,1605249653.76517,0,1605249664.0366
4,3,32,3,1,c1_WhyFace,1,proud?,103,F_618.jpg,0,7.91766333580017,0,0,0.3,0,1.71731424331665,0,0,0,0,0,0,1605249066.04311,1605249066.05755,1605249639.84325,1605249647.77958,1605249649.88037,1605249654.08196,0,1605249655.79928,0,1605249664.0366
4,3,32,4,1,c1_WhyFace,2,proud?,100,F_776.jpg,0,7.91766333580017,0,0,0.3,0,1.7173159122467,0,0,0,0,0,0,1605249066.04311,1605249066.05755,1605249639.84325,1605249647.77958,1605249649.88037,1605249656.11606,0,1605249657.83338,0,1605249664.0366
4,3,32,5,1,c1_WhyFace,1,proud?,104,F_598.jpg,0,7.91766333580017,0,0,0.3,0,1.71731495857239,0,0,0,0,0,0,1605249066.04311,1605249066.05755,1605249639.84325,1605249647.77958,1605249649.88037,1605249658.15016,0,1605249659.86748,0,1605249664.0366
4,3,32,6,1,c1_WhyFace,2,proud?,102,F_760.jpg,0,7.91766333580017,0,0,0.3,0,1.71731472015381,1.87826008796692,1,0,0,0,0,1605249066.04311,1605249066.05755,1605249639.84325,1605249647.77958,1605249649.88037,1605249660.18426,1605249662.08283,1605249661.90158,0,1605249664.0366
4,3,32,7,1,c1_WhyFace,2,proud?,98,F_412.jpg,0,7.91766333580017,0,0,0.3,0,0.683591604232788,0.66883111000061,1,0,0,0,0,1605249066.04311,1605249066.05755,1605249639.84325,1605249647.77958,1605249649.88037,1605249662.21836,1605249662.9038,1605249662.90196,0,1605249664.0366
4,3,32,8,1,c1_WhyFace,1,proud?,99,F_695.jpg,0,7.91766333580017,0,0,0.3,0,0.816973447799683,0.809134960174561,1,0,0,0,0,1605249066.04311,1605249066.05755,1605249639.84325,1605249647.77958,1605249649.88037,1605249663.21874,1605249664.0377,1605249664.03572,0,1605249664.0366
